File: debug/Daniel.UXD
; C:\DIFFDAT1\Schumacher\BaTiO3_auf_SrTiO3\SB081024b_ref.raw(Diffrac Plus V1.01 file) converted by XCH V1.0
_FILEVERSION=2
_SAMPLE='BaTiO3 auf SrTiO3 SB081013a'
_SITE='J lich / Germany'
_USER='Administrator'
_SAMPLE_CHANGER_CODE=0
_ATTACHMENTS_CODE=0
_GONIOMETER_RADIUS=217.5
_FIXED_DIVSLIT=0.150000
_FIXED_SAMPLESLIT=1.000000
_FIXED_DETSLIT=1.000000
_MONOCHROMATOR=0
; None
_THIN_FILM='N'
_BETA_FILTER='N'
_FIXED_ANTISLIT=0.150000
_ANALYZER_CODE=0
; None
_DATEMEASURED='26-Feb-2009 09:41:55'
_WL_UNIT='A'
_WL1=1.540600
_WL2=1.544390
_WL3=1.392220
_WLRATIO=0.500000
_ANODE='Cu'
; (Data for Range number 1)
_DRIVE='THETA'
_STEPTIME=240
_STEPSIZE=0.010000
_STEPMODE='S'
_START=0.000000
_THETA=0.000000
_2THETA=0.000000
_KHI=0.000000
_PHI=0.000000
_X=0.000000
_Y=0.000000
_Z=0.000000
_DIVERGENCE=0.000000
_ANTISCATTER=0.000000
_DETECTOR=1
; S.C.
_HV=675.575
_GAIN=80
_LLD=0.700531
_ULD=1.906721
_DETECTORSLIT='unkn'
_AUX1=-0.890940
_AUX2=0.000000
_AUX3=9.000000
_TIMESTARTED=1.23564e+09
_TEMP_RATE=-1.000000
_TEMP_DELAY=-1.000000
_KV=40
_MA=40
_RANGE_WL=1.540600
_3DPLANE=0
_2THETACOUNTS
   0.0000 835258982
   0.0100 469662003
   0.0200 200449996
   0.0300 110183001
   0.0400 463136992
   0.0500 182080992
   0.0600 107462000
   0.0700  71893296
   0.0800  59163400
   0.0900  58464700
   0.1000  61650900
   0.1100  66203000
   0.1200  71185400
   0.1300  76349000
   0.1400  81511600
   0.1500  86679400
   0.1600  91658200
   0.1700  96564000
   0.1800 101303000
   0.1900 105730000
   0.2000 110042000
   0.2100 114140000
   0.2200 117871000
   0.2300 121274000
   0.2400 124523000
   0.2500 127113000
   0.2600 129035000
   0.2700 129854000
   0.2800 129411000
   0.2900 126521000
   0.3000 119459000
   0.3100 107076000
   0.3200  91392896
   0.3300  75698704
   0.3400  62942100
   0.3500  53350300
   0.3600  46040600
   0.3700  40038500
   0.3800  36774000
   0.3900  32565300
   0.4000  28799900
   0.4100  25372600
   0.4200  22307100
   0.4300  19562100
   0.4400  17113700
   0.4500  14924600
   0.4600  12987400
   0.4700  11265500
   0.4800   9763860
   0.4900   8444460
   0.5000   7292830
   0.5100   6306910
   0.5200   5454660
   0.5300   4721610
   0.5400   4107200
   0.5500   3583340
   0.5600   3148280
   0.5700   2780050
   0.5800   2482340
   0.5900   2234050
   0.6000   2032520
   0.6100   1868030
   0.6200   1733980
   0.6300   1625830
   0.6400   1533650
   0.6500   1461040
   0.6600   1398150
   0.6700   1342350
   0.6800   1292680
   0.6900   1250370
   0.7000   1207580
   0.7100   1165180
   0.7200   1123580
   0.7300   1081210
   0.7400   1039110
   0.7500    993048
   0.7600    948422
   0.7700    902042
   0.7800    856197
   0.7900    806400
   0.8000    758388
   0.8100    709955
   0.8200    663296
   0.8300    618160
   0.8400    571427
   0.8500    528013
   0.8600    486526
   0.8700    445714
   0.8800    407704
   0.8900    372905
   0.9000    340023
   0.9100    307976
   0.9200    280565
   0.9300    254457
   0.9400    231373
   0.9500    210022
   0.9600    191642
   0.9700    175517
   0.9800    160075
   0.9900    147737
   1.0000    135882
   1.0100    126328
   1.0200    117182
   1.0300    109791
   1.0400    103476
   1.0500     98068
   1.0600     93058
   1.0700     89120
   1.0800     85642
   1.0900     82237
   1.1000     79314
   1.1100     76698
   1.1200     74220
   1.1300     71525
   1.1400     69111
   1.1500     66757
   1.1600     64541
   1.1700     62298
   1.1800     59509
   1.1900     57506
   1.2000     54551
   1.2100     52084
   1.2200     49963
   1.2300     47516
   1.2400     45118
   1.2500     42753
   1.2600     40227
   1.2700     38227
   1.2800     35963
   1.2900     33219
   1.3000     31615
   1.3100     29597
   1.3200     27775
   1.3300     25757
   1.3400     24271
   1.3500     22343
   1.3600     20960
   1.3700     19595
   1.3800     18653
   1.3900     17305
   1.4000     16050
   1.4100     14947
   1.4200     13974
   1.4300     13125
   1.4400     12447
   1.4500     12019
   1.4600     11589
   1.4700     10889
   1.4800     10634
   1.4900     10284
   1.5000     10261
   1.5100     10092
   1.5200      9655
   1.5300      9497
   1.5400      9625
   1.5500      9730
   1.5600      9999
   1.5700      9910
   1.5800     10057
   1.5900     10344
   1.6000     10486
   1.6100     10724
   1.6200     10850
   1.6300     11016
   1.6400     11499
   1.6500     11579
   1.6600     11800
   1.6700     12041
   1.6800     12277
   1.6900     12389
   1.7000     12500
   1.7100     12634
   1.7200     12637
   1.7300     13016
   1.7400     12987
   1.7500     12990
   1.7600     12696
   1.7700     12795
   1.7800     12610
   1.7900     12427
   1.8000     12420
   1.8100     12191
   1.8200     11992
   1.8300     11740
   1.8400     11483
   1.8500     11229
   1.8600     10782
   1.8700     10787
   1.8800     10522
   1.8900      9979
   1.9000      9872
   1.9100      9800
   1.9200      9431
   1.9300      9060
   1.9400      8758
   1.9500      8574
   1.9600      8783
   1.9700      8119
   1.9800      8223
   1.9900      8152
   2.0000      8307
   2.0100      8184
   2.0200      8113
   2.0300      8014
   2.0400      8089
   2.0500      7779
   2.0600      8108
   2.0700      7955
   2.0800      8234
   2.0900      8172
   2.1000      7999
   2.1100      8202
   2.1200      8317
   2.1300      8369
   2.1400      8441
   2.1500      8451
   2.1600      8503
   2.1700      8496
   2.1800      8554
   2.1900      8321
   2.2000      8338
   2.2100      8213
   2.2200      8249
   2.2300      8182
   2.2400      8190
   2.2500      7997
   2.2600      7885
   2.2700      7751
   2.2800      7524
   2.2900      7335
   2.3000      7263
   2.3100      6831
   2.3200      6820
   2.3300      6332
   2.3400      6345
   2.3500      6138
   2.3600      5725
   2.3700      5734
   2.3800      5504
   2.3900      5395
   2.4000      5012
   2.4100      4904
   2.4200      4784
   2.4300      4670
   2.4400      4507
   2.4500      4300
   2.4600      4227
   2.4700      4185
   2.4800      3994
   2.4900      3980
   2.5000      3899
   2.5100      3853
   2.5200      3836
   2.5300      3775
   2.5400      3689
   2.5500      3728
   2.5600      3732
   2.5700      3647
   2.5800      3632
   2.5900      3658
   2.6000      3733
   2.6100      3577
   2.6200      3539
   2.6300      3607
   2.6400      3634
   2.6500      3616
   2.6600      3475
   2.6700      3469
   2.6800      3412
   2.6900      3350
   2.7000      3264
   2.7100      3303
   2.7200      3078
   2.7300      3121
   2.7400      2971
   2.7500      3036
   2.7600      2878
   2.7700      2699
   2.7800      2622
   2.7900      2633
   2.8000      2483
   2.8100      2442
   2.8200      2362
   2.8300      2217
   2.8400      2149
   2.8500      2077
   2.8600      1998
   2.8700      2060
   2.8800      1898
   2.8900      1750
   2.9000      1782
   2.9100      1683
   2.9200      1618
   2.9300      1643
   2.9400      1639
   2.9500      1610
   2.9600      1645
   2.9700      1459
   2.9800      1519
   2.9900      1506
   3.0000      1516
   3.0100      1419
   3.0200      1444
   3.0300      1448
   3.0400      1400
   3.0500      1356
   3.0600      1441
   3.0700      1464
   3.0800      1368
   3.0900      1331
   3.1000      1342
   3.1100      1416
   3.1200      1335
   3.1300      1477
   3.1400      1343
   3.1500      1466
   3.1600      1314
   3.1700      1424
   3.1800      1377
   3.1900      1376
   3.2000      1397
   3.2100      1355
   3.2200      1277
   3.2300      1304
   3.2400      1289
   3.2500      1309
   3.2600      1294
   3.2700      1278
   3.2800      1186
   3.2900      1227
   3.3000      1231
   3.3100      1204
   3.3200      1173
   3.3300      1160
   3.3400      1210
   3.3500      1131
   3.3600      1126
   3.3700      1103
   3.3800       990
   3.3900      1054
   3.4000      1002
   3.4100      1044
   3.4200       992
   3.4300       949
   3.4400      1067
   3.4500       930
   3.4600       962
   3.4700       922
   3.4800       993
   3.4900       937
   3.5000       938
   3.5100       956
   3.5200       908
   3.5300       903
   3.5400       896
   3.5500       939
   3.5600       958
   3.5700       994
   3.5800       988
   3.5900       929
   3.6000       987
   3.6100       922
   3.6200       972
   3.6300       976
   3.6400       967
   3.6500      1012
   3.6600      1023
   3.6700       983
   3.6800       989
   3.6900      1016
   3.7000      1056
   3.7100      1016
   3.7200      1045
   3.7300      1031
   3.7400       984
   3.7500       943
   3.7600      1007
   3.7700       967
   3.7800       994
   3.7900      1003
   3.8000       937
   3.8100       926
   3.8200       926
   3.8300       968
   3.8400       866
   3.8500       893
   3.8600       921
   3.8700       933
   3.8800       861
   3.8900       874
   3.9000       804
   3.9100       816
   3.9200       798
   3.9300       867
   3.9400       796
   3.9500       779
   3.9600       814
   3.9700       831
   3.9800       748
   3.9900       762
   4.0000       816
   4.0100       780
   4.0200       782
   4.0300       767
   4.0400       762
   4.0500       719
   4.0600       811
   4.0700       791
   4.0800       780
   4.0900       767
   4.1000       766
   4.1100       761
   4.1200       783
   4.1300       845
   4.1400       818
   4.1500       789
   4.1600       777
   4.1700       833
   4.1800       790
   4.1900       849
   4.2000       755
   4.2100       757
   4.2200       771
   4.2300       738
   4.2400       824
   4.2500       776
   4.2600       775
   4.2700       761
   4.2800       743
   4.2900       739
   4.3000       743
   4.3100       734
   4.3200       714
   4.3300       705
   4.3400       700
   4.3500       713
   4.3600       703
   4.3700       716
   4.3800       687
   4.3900       668
   4.4000       688
   4.4100       651
   4.4200       674
   4.4300       633
   4.4400       646
   4.4500       656
   4.4600       679
   4.4700       614
   4.4800       592
   4.4900       635
   4.5000       653
   4.5100       618
   4.5200       588
   4.5300       633
   4.5400       590
   4.5500       641
   4.5600       599
   4.5700       610
   4.5800       613
   4.5900       613
   4.6000       626
   4.6100       596
   4.6200       617
   4.6300       627
   4.6400       561
   4.6500       642
   4.6600       623
   4.6700       598
   4.6800       609
   4.6900       598
   4.7000       603
   4.7100       592
   4.7200       626
   4.7300       629
   4.7400       625
   4.7500       657
   4.7600       596
   4.7700       641
   4.7800       597
   4.7900       595
   4.8000       576
   4.8100       573
   4.8200       592
   4.8300       608
   4.8400       572
   4.8500       586
   4.8600       582
   4.8700       579
   4.8800       575
   4.8900       562
   4.9000       558
   4.9100       602
   4.9200       580
   4.9300       585
   4.9400       564
   4.9500       496
   4.9600       547
   4.9700       503
   4.9800       555
   4.9900       550
   5.0000       497
   5.0100       574
   5.0200       551
   5.0300       555
   5.0400       548
   5.0500       550
   5.0600       533
   5.0700       543
   5.0800       540
   5.0900       482
   5.1000       524
   5.1100       599
   5.1200       538
   5.1300       505
   5.1400       524
   5.1500       530
   5.1600       567
   5.1700       523
   5.1800       517
   5.1900       546
   5.2000       529
   5.2100       546
   5.2200       517
   5.2300       581
   5.2400       524
   5.2500       503
   5.2600       509
   5.2700       514
   5.2800       545
   5.2900       513
   5.3000       467
   5.3100       552
   5.3200       540
   5.3300       506
   5.3400       519
   5.3500       500
   5.3600       498
   5.3700       533
   5.3800       534
   5.3900       501
   5.4000       501
   5.4100       510
   5.4200       496
   5.4300       490
   5.4400       546
   5.4500       524
   5.4600       499
   5.4700       507
   5.4800       452
   5.4900       473
   5.5000       495
   5.5100       480
   5.5200       461
   5.5300       541
   5.5400       502
   5.5500       484
   5.5600       486
   5.5700       463
   5.5800       497
   5.5900       489
   5.6000       495
   5.6100       489
   5.6200       459
   5.6300       500
   5.6400       510
   5.6500       492
   5.6600       495
   5.6700       486
   5.6800       485
   5.6900       534
   5.7000       465
   5.7100       459
   5.7200       506
   5.7300       459
   5.7400       505
   5.7500       553
   5.7600       515
   5.7700       510
   5.7800       507
   5.7900       497
   5.8000       474
   5.8100       456
   5.8200       492
   5.8300       471
   5.8400       467
   5.8500       456
   5.8600       517
   5.8700       475
   5.8800       468
   5.8900       501
   5.9000       475
   5.9100       447
   5.9200       478
   5.9300       467
   5.9400       480
   5.9500       507
   5.9600       473
   5.9700       445
   5.9800       454
   5.9900       500
   6.0000       460