File: debug/P043_136C.uxd
; (content of file C:\DIFFDAT1\Josten\P043-temp\P043_136C.raw)
_FILEVERSION = 2
_SAMPLE = P043
_+SAMPLE =
_SITE = "Jülich / Germany"
_USER = Administrator
_GONIOMETER_CODE = 21
; Goniometer : D8 theta/theta, stage : Unknown
_SAMPLE_CHANGER_CODE = 0
_ATTACHMENTS_CODE = 0
_GONIOMETER_RADIUS = 217.5
_FIXED_DIVSLIT = 0.15
_FIXED_SAMPLESLIT = 1
_FIXED_DETSLIT = 1
_MONOCHROMATOR = 0
; Incident beam monochromator : None
_THIN_FILM = N
_BETA_FILTER = N
_FIXED_ANTISLIT = 0.15
_ANALYZER_CODE = 0
; Received beam analyzer : None
_WL_UNIT = A
_WL1 = 1.5406
_WL2 = 1.54439
_WL3 = 1.39222
_WLRATIO = 0.5
_ANODE = Cu

; Data for range 1
_DRIVE = COUPLED
_STEPTIME = 1.5
_STEPSIZE = 0.01
_STEPMODE = C
_START = 0.14
_THETA = 0.07
_2THETA = 0.14
_KHI = 0
_PHI = 0
_X = 0
_Y = 0
_Z = 0
_DETECTOR = 1
; Detector type : Scintillation counter
_HV = 675.6
_GAIN = 80
_LLD = 0.7005
_ULD = 1.907
_DETECTORSLIT = out
_AUX1 = -0.52106
_AUX2 = 0
_AUX3 = 0
_TIMESTARTED = 2
_TEMP_RATE = -1
_TEMP_DELAY = -1
_KV = 40
_MA = 40
_RANGE_WL = 1.5406
_3DPLANE = 0
_V4_COUNTERS_MASK = 1
_V4_DRIVES_MASK = 0
_V4_ENCODERS_MASK = 0
_COUNTS = 1
; Cnt1_D1
   113247
    90562
    74550
    63114
    54953
    48584
    43661
    39866
    36323
    33554
    30799
    28524
    26151
    23407
    21870
    20520
    18928
    17570
    16766
    16246
    16001
    15981
    15544
    15641
    15608
    15661
    15681
    15154
    14976
    14518
    13991
    13216
    11908
    11059
    10221
     9051
     8134
     7403
     6813
     6168
     5738
     5088
     4590
     4223
     3777
     3354
     3011
     2910
     2643
     2429
     2278
     2116
     1981
     1953
     1778
     1757
     1727
     1559
     1577
     1496
     1407
     1392
     1404
     1286
     1337
     1331
     1419
     1481
     1584
     1657
     1986
     2411
     3027
     4247
     6391
     9536
    12732
    14733
    14643
    13137
    11063
     9279
     7719
     6667
     5465
     4481
     3342
     2649
     1861
     1564
     1156
      980
      780
      611
      500
      439
      345
      321
      269
      265
      207
      203
      180
      170
      155
      137
      117
      131
      131
      120
      103
       99
       98
       87
       89
       74
       90
       88
       68
       60
       79
       64
       72
       45
       60
       44
       55
       55
       54
       50
       59
       52
       46
       55
       51
       61
       52
       57
       58
       51
       61
       55
       61
       49
       43
       57
       52
       56
       43
       38
       47
       44
       40
       49
       46
       48
       47
       55
       62
       74
      116
      170
      271
      357
      491
      473
      482
      382
      360
      320
      217
      175
      149
      122
       96
       53
       52
       29
       29
       26
       29
       20
       16
       25
       24
       14
       10
        9
       10
       14
       23
       17
        8
       10
       15
        7
       13
       13
        9
       14
       15
        8
       10
        7
       10
       13
       13
       11
        6
       14
       11
       12
       10
        4
        5
       11
       12
        5
        9
        8
        6
        4
        6
       15
        3
       12
        6
        6
       12
       11
       13
        7
        7
        3
        8
        5
        7
       11
       10
        3
        4
        7
        9
        5
        8
        4
        9
        7
        7
        6
       14
       26
       18
       29
       30
       20
       16
       12
       16
       17
       20
        8
        7
        8
        6
        5
        3
        2
        4
        9
        6
       11
        4
        5
        3
        2
        3
        5
        4
        2
        5
        6
        4
        1
        5
        1
        7
        2
        2
        1
        2
        4
        3
        2
        3
        1
        3
        3
        3
        1
        3
        4
        3
        2
        1
        0
        2
        1
        4
        6
        5
        4
        1
        3
        4
        2
        2
        5
        3
        3
        1
        2
        3
        3
        2
        1
        2
        2
        1
        3
        4
        2
        1
        2
        3
        3
        2
        2
        1
        4
        4
        3
        2
        1
        3
        2
        4
        0
        0
        3
        1
        1
        3
        2
        2
        1
        3
        0
        2
        2
        2
        0
        2
        1
        2
        2
        1
        4
        0
        2
        3
        3
        2
        0
        2
        2
        1
        0
        4
        0
        1
        3
        1
        0
        0
        2
        1