File: debug/reflectometer_map.UXD
; C:\DIFFDAT1\Zakalek\PdFe-Multilayer\PdFe2-map.raw(Diffrac Plus V1.01 file) converted by XCH V1.0
_FILEVERSION=2
_SAMPLE='Pd/Fe10x5'
_SITE='J lich / Germany'
_USER='Administrator'
_SAMPLE_CHANGER_CODE=0
_ATTACHMENTS_CODE=0
_GONIOMETER_RADIUS=217.5
_FIXED_DIVSLIT=0.150000
_FIXED_SAMPLESLIT=1.000000
_FIXED_DETSLIT=1.000000
_MONOCHROMATOR=0
; None
_THIN_FILM='N'
_BETA_FILTER='N'
_FIXED_ANTISLIT=0.150000
_ANALYZER_CODE=0
; None
_DATEMEASURED='22-Mar-2010 00:06:08'
_WL_UNIT='A'
_WL1=1.540600
_WL2=1.544390
_WL3=1.392220
_WLRATIO=0.500000
_ANODE='Cu'
; (Data for Range number 1)
_DRIVE='COUPLED'
_STEPTIME=30
_STEPSIZE=0.010000
_STEPMODE='S'
_START=0.000000
_THETA=0.000000
_2THETA=0.000000
_KHI=0.000000
_PHI=0.000000
_X=0.000000
_Y=0.000000
_Z=0.000000
_DIVERGENCE=0.000000
_ANTISCATTER=0.000000
_DETECTOR=1
; S.C.
_HV=675.575
_GAIN=80
_LLD=0.700531
_ULD=1.906721
_DETECTORSLIT='unkn'
_AUX1=-0.662540
_AUX2=0.273480
_AUX3=8.000000
_TIMESTARTED=14
_TEMP_RATE=-1.000000
_TEMP_DELAY=-1.000000
_KV=40
_MA=40
_RANGE_WL=1.540600
_3DPLANE=0
_2THETACOUNTS
   0.0000  75042400
   0.0100  67871400
   0.0200  53186800
   0.0300  44756900
   0.0400  42388700
   0.0500  44433300
   0.0600  46855200
   0.0700  46081000
   0.0800  39318000
   0.0900  26334400
   0.1000  17740800
   0.1100  12508200
   0.1200   9899630
   0.1300   8701870
   0.1400   8057970
   0.1500   7687830
   0.1600   7479150
   0.1700   7361560
   0.1800   7431850
   0.1900   7610310
   0.2000   7826510
   0.2100   7990700
   0.2200   8139000
   0.2300   8211100
   0.2400   8333020
   0.2500   8435280
   0.2600   8725620
   0.2700   9094020
   0.2800   9482910
   0.2900   9825730
   0.3000  10025900
   0.3100  10153800
   0.3200  10268200
   0.3300  10335400
   0.3400  10609200
   0.3500  11007200
   0.3600  11425900
   0.3700  11750300
   0.3800  11922600
   0.3900  11989800
   0.4000  12012700
   0.4100  12004000
   0.4200  12121700
   0.4300  12478900
   0.4400  12876500
   0.4500  13159600
   0.4600  13270700
   0.4700  13246000
   0.4800  13173200
   0.4900  13072300
   0.5000  13034400
   0.5100  13340400
   0.5200  13656600
   0.5300  13924700
   0.5400  13992600
   0.5500  13922800
   0.5600  13762700
   0.5700  13565900
   0.5800  13438200
   0.5900  13620400
   0.6000  13879700
   0.6100  14107900
   0.6200  14116600
   0.6300  13982000
   0.6400  13772700
   0.6500  13507600
   0.6600  13252300
   0.6700  13356400
   0.6800  13573400
   0.6900  13729900
   0.7000  13715700
   0.7100  13488700
   0.7200  13210700
   0.7300  12878300
   0.7400  12541100
   0.7500  12475300
   0.7600  12500100
   0.7700  12478300
   0.7800  12308900
   0.7900  11942900
   0.8000  11434800
   0.8100  10882400
   0.8200  10200400
   0.8300   9683320
   0.8400   9311130
   0.8500   8833490
   0.8600   8170700
   0.8700   7314590
   0.8800   6321590
   0.8900   5286910
   0.9000   4413540
   0.9100   3769630
   0.9200   3140800
   0.9300   2575230
   0.9400   2056360
   0.9500   1657140
   0.9600   1360530
   0.9700   1157100
   0.9800   1010510
   0.9900    914984
   1.0000    835033
   1.0100    763122
   1.0200    686622
   1.0300    615318
   1.0400    545161
   1.0500    482301
   1.0600    423788
   1.0700    382041
   1.0800    343620
   1.0900    308177
   1.1000    271716
   1.1100    240518
   1.1200    215413
   1.1300    195999
   1.1400    184375
   1.1500    179560
   1.1600    175969
   1.1700    169997
   1.1800    163161
   1.1900    154652
   1.2000    145567
   1.2100    135785
   1.2200    127482
   1.2300    122295
   1.2400    116899
   1.2500    112243
   1.2600    106212
   1.2700    100318
   1.2800     93224
   1.2900     87486
   1.3000     81096
   1.3100     77678
   1.3200     74983
   1.3300     72182
   1.3400     68786
   1.3500     64920
   1.3600     60839
   1.3700     57116
   1.3800     53883
   1.3900     51243
   1.4000     50158
   1.4100     48516
   1.4200     46544
   1.4300     44601
   1.4400     42293
   1.4500     39369
   1.4600     36702
   1.4700     34466
   1.4800     32634
   1.4900     29921
   1.5000     27047
   1.5100     23313
   1.5200     19738
   1.5300     16240
   1.5400     13716
   1.5500     12076
   1.5600     11407
   1.5700     11495
   1.5800     11258
   1.5900     11307
   1.6000     10877
   1.6100     10709
   1.6200     10580
   1.6300     10001
   1.6400      9959
   1.6500      9770
   1.6600     10023
   1.6700      9618
   1.6800      9369
   1.6900      8866
   1.7000      8544
   1.7100      8061
   1.7200      7989
   1.7300      7849
   1.7400      7581
   1.7500      7409
   1.7600      7177
   1.7700      6899
   1.7800      6593
   1.7900      6232
   1.8000      6185
   1.8100      6098
   1.8200      6118
   1.8300      5980
   1.8400      5663
   1.8500      5569
   1.8600      5373
   1.8700      4994
   1.8800      5002
   1.8900      4866
   1.9000      5020
   1.9100      4903
   1.9200      5091
   1.9300      5004
   1.9400      4902
   1.9500      4893
   1.9600      4747
   1.9700      4801
   1.9800      4861
   1.9900      4877
   2.0000      4860
   2.0100      4622
   2.0200      4160
   2.0300      3777
   2.0400      3196
   2.0500      2700
   2.0600      2151
   2.0700      1879
   2.0800      1586
   2.0900      1431
   2.1000      1413
   2.1100      1362
   2.1200      1313
   2.1300      1365
   2.1400      1390
   2.1500      1292
   2.1600      1272
   2.1700      1266
   2.1800      1277
   2.1900      1257
   2.2000      1223
   2.2100      1231
   2.2200      1282
   2.2300      1230
   2.2400      1212
   2.2500      1205
   2.2600      1133
   2.2700      1153
   2.2800      1047
   2.2900      1063
   2.3000      1031
   2.3100      1079
   2.3200      1031
   2.3300      1005
   2.3400       948
   2.3500       968
   2.3600       962
   2.3700       947
   2.3800       921
   2.3900       920
   2.4000       925
   2.4100       886
   2.4200       899
   2.4300       852
   2.4400       866
   2.4500       846
   2.4600       860
   2.4700       877
   2.4800       892
   2.4900      1009
   2.5000       985
   2.5100      1015
   2.5200      1025
   2.5300      1130
   2.5400      1158
   2.5500      1278
   2.5600      1379
   2.5700      1370
   2.5800      1269
   2.5900      1278
   2.6000      1080
   2.6100       970
   2.6200       800
   2.6300       750
   2.6400       619
   2.6500       552
   2.6600       468
   2.6700       403
   2.6800       377
   2.6900       329
   2.7000       334
   2.7100       303
   2.7200       321
   2.7300       282
   2.7400       303
   2.7500       325
   2.7600       293
   2.7700       342
   2.7800       352
   2.7900       370
   2.8000       381
   2.8100       350
   2.8200       354
   2.8300       379
   2.8400       357
   2.8500       329
   2.8600       405
   2.8700       385
   2.8800       391
   2.8900       388
   2.9000       375
   2.9100       416
   2.9200       415
   2.9300       405
   2.9400       453
   2.9500       401
   2.9600       403
   2.9700       431
   2.9800       390
   2.9900       407
   3.0000       414
   3.0100       395
   3.0200       361
   3.0300       446
   3.0400       373
   3.0500       445
   3.0600       426
   3.0700       488
   3.0800       487
   3.0900       476
   3.1000       556
   3.1100       539
   3.1200       597
   3.1300       637
   3.1400       711
   3.1500       697
   3.1600       653
   3.1700       704
   3.1800       624
   3.1900       589
   3.2000       532
   3.2100       473
   3.2200       423
   3.2300       342
   3.2400       289
   3.2500       262
   3.2600       222
   3.2700       201
   3.2800       216
   3.2900       190
   3.3000       188
   3.3100       195
   3.3200       179
   3.3300       178
   3.3400       181
   3.3500       178
   3.3600       201
   3.3700       197
   3.3800       195
   3.3900       213
   3.4000       250
   3.4100       219
   3.4200       205
   3.4300       212
   3.4400       223
   3.4500       225
   3.4600       225
   3.4700       227
   3.4800       216
   3.4900       235
   3.5000       202
   3.5100       220
   3.5200       227
   3.5300       204
   3.5400       186
   3.5500       188
   3.5600       197
   3.5700       169
   3.5800       167
   3.5900       207
   3.6000       183
   3.6100       177
   3.6200       183
   3.6300       152
   3.6400       200
   3.6500       201
   3.6600       182
   3.6700       171
   3.6800       213
   3.6900       252
   3.7000       251
   3.7100       318
   3.7200       320
   3.7300       373
   3.7400       351
   3.7500       374
   3.7600       379
   3.7700       358
   3.7800       362
   3.7900       313
   3.8000       289
   3.8100       229
   3.8200       210
   3.8300       193
   3.8400       192
   3.8500       144
   3.8600       136
   3.8700       139
   3.8800       112
   3.8900       100
   3.9000        94
   3.9100       101
   3.9200        94
   3.9300       105
   3.9400       113
   3.9500       120
   3.9600       134
   3.9700       132
   3.9800       115
   3.9900       121
   4.0000       141
   4.0100       136
   4.0200       148
   4.0300       143
   4.0400       151
   4.0500       148
   4.0600       153
   4.0700       108
   4.0800       140
   4.0900       129
   4.1000       122
   4.1100       123
   4.1200       117
   4.1300       122
   4.1400       107
   4.1500       110
   4.1600        98
   4.1700        98
   4.1800       119
   4.1900       119
   4.2000       110
   4.2100       103
   4.2200       113
   4.2300       134
   4.2400       124
   4.2500       129
   4.2600       142
   4.2700       132
   4.2800       156
   4.2900       191
   4.3000       194
   4.3100       190
   4.3200       226
   4.3300       262
   4.3400       257
   4.3500       262
   4.3600       282
   4.3700       272
   4.3800       232
   4.3900       226
   4.4000       201
   4.4100       186
   4.4200       176
   4.4300       154
   4.4400       139
   4.4500       120
   4.4600       101
   4.4700       102
   4.4800       105
   4.4900        89
   4.5000        91
   4.5100        70
   4.5200        96
   4.5300        82
   4.5400       106
   4.5500       111
   4.5600       107
   4.5700        92
   4.5800        94
   4.5900        94
   4.6000        97
   4.6100        98
   4.6200        97
   4.6300        93
   4.6400       106
   4.6500        99
   4.6600        95
   4.6700        95
   4.6800        77
   4.6900        98
   4.7000        88
   4.7100        87
   4.7200        82
   4.7300        72
   4.7400        66
   4.7500        77
   4.7600        84
   4.7700        84
   4.7800        84
   4.7900        77
   4.8000        87
   4.8100        84
   4.8200        82
   4.8300        80
   4.8400        96
   4.8500       105
   4.8600       118
   4.8700       105
   4.8800       113
   4.8900       130
   4.9000       148
   4.9100       168
   4.9200       171
   4.9300       167
   4.9400       223
   4.9500       182
   4.9600       176
   4.9700       198
   4.9800       192
   4.9900       176
   5.0000       146
   5.0100       147
   5.0200       120
   5.0300       117
   5.0400       127
   5.0500       120
   5.0600       104
   5.0700       104
   5.0800       107
   5.0900        77
   5.1000        96
   5.1100        83
   5.1200        99
   5.1300       112
   5.1400        92
   5.1500        75
   5.1600        94
   5.1700       101
   5.1800        87
   5.1900        93
   5.2000        72
   5.2100        94
   5.2200        87
   5.2300        85
   5.2400        86
   5.2500        67
   5.2600        69
   5.2700        73
   5.2800        60
   5.2900        83
   5.3000        64
   5.3100        55
   5.3200        76
   5.3300        70
   5.3400        60
   5.3500        80
   5.3600        65
   5.3700        79
   5.3800        92
   5.3900        60
   5.4000        70
   5.4100        87
   5.4200        61
   5.4300        80
   5.4400        64
   5.4500        81
   5.4600        82
   5.4700        77
   5.4800        88
   5.4900       101
   5.5000       128
   5.5100       143
   5.5200       143
   5.5300       133
   5.5400       138
   5.5500       141
   5.5600       151
   5.5700       144
   5.5800       136
   5.5900       120
   5.6000       123
   5.6100        90
   5.6200       112
   5.6300       107
   5.6400        79
   5.6500        82
   5.6600        81
   5.6700       101
   5.6800        91
   5.6900        93
   5.7000        92
   5.7100        82
   5.7200        92
   5.7300        75
   5.7400        77
   5.7500        65
   5.7600        70
   5.7700        78
   5.7800        47
   5.7900        57
   5.8000        68
   5.8100        54
   5.8200        58
   5.8300        64
   5.8400        55
   5.8500        41
   5.8600        32
   5.8700        54
   5.8800        52
   5.8900        45
   5.9000        41
   5.9100        60
   5.9200        42
   5.9300        54
   5.9400        65
   5.9500        50
   5.9600        54
   5.9700        51
   5.9800        67
   5.9900        50
   6.0000        59
; (Data for Range number 2)
_DRIVE='COUPLED'
_STEPTIME=30
_STEPSIZE=0.010000
_STEPMODE='S'
_START=0.000000
_THETA=0.100000
_2THETA=0.000000
_KHI=0.000000
_PHI=0.000000
_X=0.000000
_Y=0.000000
_Z=0.000000
_DIVERGENCE=0.000000
_ANTISCATTER=0.000000
_DETECTOR=1
; S.C.
_HV=675.575
_GAIN=80
_LLD=0.700531
_ULD=1.906721
_DETECTORSLIT='unkn'
_AUX1=-0.662540
_AUX2=0.273480
_AUX3=8.000000
_TIMESTARTED=18169
_TEMP_RATE=-1.000000
_TEMP_DELAY=-1.000000
_KV=40
_MA=40
_RANGE_WL=1.540600
_3DPLANE=0
_2THETACOUNTS
   0.0000  73028000
   0.0100  74673696
   0.0200  63739000
   0.0300  50325700
   0.0400  42931000
   0.0500  41847100
   0.0600  41706700
   0.0700  40490700
   0.0800  34612900
   0.0900  23915000
   0.1000  15049100
   0.1100   8983800
   0.1200   5670450
   0.1300   4116720
   0.1400   3348600
   0.1500   2806220
   0.1600   2325360
   0.1700   1883050
   0.1800   1528070
   0.1900   1234470
   0.2000    983714
   0.2100    792209
   0.2200    635644
   0.2300    513555
   0.2400    408554
   0.2500    317395
   0.2600    241272
   0.2700    182540
   0.2800    138579
   0.2900    109719
   0.3000     92126
   0.3100     81534
   0.3200     73585
   0.3300     69390
   0.3400     66215
   0.3500     66198
   0.3600     67066
   0.3700     70074
   0.3800     75123
   0.3900     80735
   0.4000     86138
   0.4100     90408
   0.4200     94232
   0.4300     97481
   0.4400    101003
   0.4500    106788
   0.4600    115925
   0.4700    126071
   0.4800    134730
   0.4900    143027
   0.5000    148787
   0.5100    156281
   0.5200    162985
   0.5300    173589
   0.5400    186601
   0.5500    202748
   0.5600    216851
   0.5700    231568
   0.5800    241806
   0.5900    254230
   0.6000    264449
   0.6100    279950
   0.6200    300643
   0.6300    323596
   0.6400    343857
   0.6500    359105
   0.6600    369155
   0.6700    377132
   0.6800    380841
   0.6900    383782
   0.7000    398071
   0.7100    410509
   0.7200    419335
   0.7300    418808
   0.7400    414118
   0.7500    407121
   0.7600    401661
   0.7700    398940
   0.7800    403144
   0.7900    409512
   0.8000    413674
   0.8100    409645
   0.8200    403275
   0.8300    394260
   0.8400    384793
   0.8500    380568
   0.8600    378671
   0.8700    382734
   0.8800    384435
   0.8900    379048
   0.9000    369699
   0.9100    359608
   0.9200    350267
   0.9300    343968
   0.9400    339750
   0.9500    340624
   0.9600    336785
   0.9700    329783
   0.9800    318233
   0.9900    303247
   1.0000    288409
   1.0100    273696
   1.0200    266405
   1.0300    257476
   1.0400    246052
   1.0500    232460
   1.0600    213298
   1.0700    193812
   1.0800    174977
   1.0900    156478
   1.1000    141524
   1.1100    127249
   1.1200    113054
   1.1300     99628
   1.1400     87057
   1.1500     75369
   1.1600     66054
   1.1700     58007
   1.1800     52795
   1.1900     49408
   1.2000     46112
   1.2100     42822
   1.2200     39283
   1.2300     36489
   1.2400     33212
   1.2500     30384
   1.2600     28755
   1.2700     27644
   1.2800     26064
   1.2900     24617
   1.3000     22902
   1.3100     21053
   1.3200     19840
   1.3300     18745
   1.3400     17525
   1.3500     16827
   1.3600     16310
   1.3700     15684
   1.3800     14682
   1.3900     14101
   1.4000     13269
   1.4100     12357
   1.4200     12083
   1.4300     11577
   1.4400     11178
   1.4500     10826
   1.4600     10388
   1.4700      9409
   1.4800      8964
   1.4900      8204
   1.5000      7844
   1.5100      7121
   1.5200      6446
   1.5300      5935
   1.5400      5190
   1.5500      4583
   1.5600      4103
   1.5700      3787
   1.5800      3624
   1.5900      3538
   1.6000      3403
   1.6100      3501
   1.6200      3381
   1.6300      3191
   1.6400      3100
   1.6500      3138
   1.6600      3032
   1.6700      2940
   1.6800      3049
   1.6900      2850
   1.7000      2840
   1.7100      2672
   1.7200      2557
   1.7300      2395
   1.7400      2403
   1.7500      2345
   1.7600      2426
   1.7700      2319
   1.7800      2241
   1.7900      2177
   1.8000      2091
   1.8100      2059
   1.8200      2087
   1.8300      1999
   1.8400      2144
   1.8500      2032
   1.8600      1983
   1.8700      1927
   1.8800      1832
   1.8900      1843
   1.9000      1757
   1.9100      1785
   1.9200      1832
   1.9300      1838
   1.9400      1850
   1.9500      1775
   1.9600      1840
   1.9700      1786
   1.9800      1796
   1.9900      1700
   2.0000      1739
   2.0100      1733
   2.0200      1619
   2.0300      1498
   2.0400      1331
   2.0500      1158
   2.0600       953
   2.0700       883
   2.0800       780
   2.0900       695
   2.1000       651
   2.1100       602
   2.1200       622
   2.1300       581
   2.1400       558
   2.1500       569
   2.1600       580
   2.1700       562
   2.1800       604
   2.1900       581
   2.2000       578
   2.2100       592
   2.2200       521
   2.2300       565
   2.2400       623
   2.2500       528
   2.2600       566
   2.2700       540
   2.2800       530
   2.2900       488
   2.3000       502
   2.3100       513
   2.3200       482
   2.3300       466
   2.3400       492
   2.3500       535
   2.3600       481
   2.3700       472
   2.3800       464
   2.3900       441
   2.4000       457
   2.4100       470
   2.4200       415
   2.4300       473
   2.4400       454
   2.4500       420
   2.4600       415
   2.4700       472
   2.4800       447
   2.4900       465
   2.5000       460
   2.5100       468
   2.5200       470
   2.5300       457
   2.5400       532
   2.5500       497
   2.5600       599
   2.5700       586
   2.5800       607
   2.5900       561
   2.6000       523
   2.6100       479
   2.6200       411
   2.6300       375
   2.6400       316
   2.6500       292
   2.6600       245
   2.6700       230
   2.6800       225
   2.6900       204
   2.7000       190
   2.7100       189
   2.7200       194
   2.7300       176
   2.7400       164
   2.7500       197
   2.7600       177
   2.7700       217
   2.7800       211
   2.7900       201
   2.8000       236
   2.8100       211
   2.8200       204
   2.8300       212
   2.8400       215
   2.8500       227
   2.8600       238
   2.8700       232
   2.8800       207
   2.8900       223
   2.9000       245
   2.9100       236
   2.9200       241
   2.9300       226
   2.9400       263
   2.9500       224
   2.9600       236
   2.9700       228
   2.9800       241
   2.9900       251
   3.0000       257
   3.0100       226
   3.0200       204
   3.0300       235
   3.0400       222
   3.0500       242
   3.0600       258
   3.0700       229
   3.0800       307
   3.0900       240
   3.1000       310
   3.1100       293
   3.1200       318
   3.1300       317
   3.1400       352
   3.1500       362
   3.1600       380
   3.1700       322
   3.1800       316
   3.1900       277
   3.2000       284
   3.2100       239
   3.2200       222
   3.2300       186
   3.2400       159
   3.2500       161
   3.2600       144
   3.2700       147
   3.2800       138
   3.2900       125
   3.3000       115
   3.3100       115
   3.3200       130
   3.3300        97
   3.3400       124
   3.3500       129
   3.3600       135
   3.3700       129
   3.3800       129
   3.3900       132
   3.4000       120
   3.4100       149
   3.4200       135
   3.4300       148
   3.4400       145
   3.4500       128
   3.4600       154
   3.4700       120
   3.4800       155
   3.4900       157
   3.5000       156
   3.5100       144
   3.5200       155
   3.5300       128
   3.5400       114
   3.5500       141
   3.5600       133
   3.5700       119
   3.5800       121
   3.5900       115
   3.6000       109
   3.6100       128
   3.6200       120
   3.6300       112
   3.6400       131
   3.6500       134
   3.6600       140
   3.6700       143
   3.6800       159
   3.6900       143
   3.7000       172
   3.7100       193
   3.7200       191
   3.7300       192
   3.7400       225
   3.7500       215
   3.7600       194
   3.7700       194
   3.7800       194
   3.7900       171
   3.8000       178
   3.8100       131
   3.8200       124
   3.8300       112
   3.8400       107
   3.8500        80
   3.8600       102
   3.8700        98
   3.8800        63
   3.8900        73
   3.9000        88
   3.9100        76
   3.9200        71
   3.9300        79
   3.9400        74
   3.9500        75
   3.9600        92
   3.9700        97
   3.9800        90
   3.9900        94
   4.0000        92
   4.0100        95
   4.0200        81
   4.0300        94
   4.0400        99
   4.0500        83
   4.0600        71
   4.0700        97
   4.0800        95
   4.0900        91
   4.1000        93
   4.1100        87
   4.1200        82
   4.1300        98
   4.1400        84
   4.1500        78
   4.1600        88
   4.1700        76
   4.1800        78
   4.1900        85
   4.2000        80
   4.2100        75
   4.2200        92
   4.2300        94
   4.2400        71
   4.2500       104
   4.2600        88
   4.2700       115
   4.2800       112
   4.2900       115
   4.3000       123
   4.3100       120
   4.3200       125
   4.3300       145
   4.3400       126
   4.3500       142
   4.3600       131
   4.3700       137
   4.3800       132
   4.3900       132
   4.4000       102
   4.4100       122
   4.4200       126
   4.4300        98
   4.4400       100
   4.4500        92
   4.4600        71
   4.4700        70
   4.4800        77
   4.4900        74
   4.5000        68
   4.5100        59
   4.5200        85
   4.5300        79
   4.5400        78
   4.5500        62
   4.5600        59
   4.5700        81
   4.5800        70
   4.5900        67
   4.6000        82
   4.6100        70
   4.6200        65
   4.6300        73
   4.6400        77
   4.6500        74
   4.6600        67
   4.6700        67
   4.6800        67
   4.6900        69
   4.7000        67
   4.7100        67
   4.7200        58
   4.7300        82
   4.7400        49
   4.7500        73
   4.7600        71
   4.7700        70
   4.7800        60
   4.7900        77
   4.8000        73
   4.8100        66
   4.8200        68
   4.8300        75
   4.8400        69
   4.8500        74
   4.8600        78
   4.8700        92
   4.8800        97
   4.8900        91
   4.9000        97
   4.9100        87
   4.9200       110
   4.9300       102
   4.9400       127
   4.9500       107
   4.9600       116
   4.9700       128
   4.9800       105
   4.9900       105
   5.0000        97
   5.0100        94
   5.0200        93
   5.0300        85
   5.0400        84
   5.0500        84
   5.0600        75
   5.0700        72
   5.0800        65
   5.0900        67
   5.1000        67
   5.1100        75
   5.1200        68
   5.1300        59
   5.1400        51
   5.1500        81
   5.1600        60
   5.1700        71
   5.1800        63
   5.1900        68
   5.2000        66
   5.2100        73
   5.2200        70
   5.2300        55
   5.2400        53
   5.2500        67
   5.2600        47
   5.2700        67
   5.2800        57
   5.2900        73
   5.3000        64
   5.3100        57
   5.3200        54
   5.3300        49
   5.3400        72
   5.3500        62
   5.3600        60
   5.3700        63
   5.3800        61
   5.3900        61
   5.4000        80
   5.4100        56
   5.4200        71
   5.4300        50
   5.4400        78
   5.4500        58
   5.4600        73
   5.4700        83
   5.4800        83
   5.4900        87
   5.5000        87
   5.5100        79
   5.5200        86
   5.5300       106
   5.5400        80
   5.5500       112
   5.5600        97
   5.5700        70
   5.5800        97
   5.5900        93
   5.6000        77
   5.6100        86
   5.6200        91
   5.6300        87
   5.6400        70
   5.6500        63
   5.6600        55
   5.6700        67
   5.6800        56
   5.6900        75
   5.7000        63
   5.7100        47
   5.7200        53
   5.7300        63
   5.7400        53
   5.7500        45
   5.7600        50
   5.7700        51
   5.7800        53
   5.7900        52
   5.8000        55
   5.8100        51
   5.8200        61
   5.8300        62
   5.8400        53
   5.8500        62
   5.8600        53
   5.8700        37
   5.8800        52
   5.8900        38
   5.9000        38
   5.9100        50
   5.9200        39
   5.9300        48
   5.9400        43
   5.9500        48
   5.9600        57
   5.9700        53
   5.9800        41
   5.9900        46
   6.0000        59
; (Data for Range number 3)
_DRIVE='THETA'
_STEPTIME=10
_STEPSIZE=0.010000
_STEPMODE='S'
_START=0.000000
_THETA=0.000000
_2THETA=1.000000
_KHI=0.000000
_PHI=0.000000
_X=0.000000
_Y=0.000000
_Z=0.000000
_DIVERGENCE=0.000000
_ANTISCATTER=0.000000
_DETECTOR=1
; S.C.
_HV=675.575
_GAIN=80
_LLD=0.700531
_ULD=1.906721
_DETECTORSLIT='unkn'
_AUX1=-0.662540
_AUX2=0.273480
_AUX3=8.000000
_TIMESTARTED=36325
_TEMP_RATE=-1.000000
_TEMP_DELAY=-1.000000
_KV=40
_MA=40
_RANGE_WL=1.540600
_3DPLANE=0
_2THETACOUNTS
   0.0000        74
   0.0100       101
   0.0200       137
   0.0300       168
   0.0400       203
   0.0500       210
   0.0600       296
   0.0700       313
   0.0800       378
   0.0900       425
   0.1000       489
   0.1100       573
   0.1200       724
   0.1300       807
   0.1400       965
   0.1500      1155
   0.1600      1365
   0.1700      1679
   0.1800      2004
   0.1900      2346
   0.2000      2971
   0.2100      3670
   0.2200      4446
   0.2300      5401
   0.2400      6466
   0.2500      7937
   0.2600      9564
   0.2700     11455
   0.2800     13665
   0.2900     15999
   0.3000     19166
   0.3100     22524
   0.3200     26428
   0.3300     31380
   0.3400     36763
   0.3500     43383
   0.3600     50075
   0.3700     59054
   0.3800     68555
   0.3900     78230
   0.4000     90056
   0.4100    100570
   0.4200    112422
   0.4300    122436
   0.4400    131227
   0.4500    140299
   0.4600    145336
   0.4700    147049
   0.4800    158333
   0.4900    216745
   0.5000    266045
   0.5100    237683
   0.5200    214137
   0.5300    185418
   0.5400    150379
   0.5500    137808
   0.5600    132829
   0.5700    127960
   0.5800    119187
   0.5900    108311
   0.6000     96280
   0.6100     83676
   0.6200     72352
   0.6300     61984
   0.6400     52509
   0.6500     43697
   0.6600     36704
   0.6700     30655
   0.6800     26254
   0.6900     21681
   0.7000     18584
   0.7100     15585
   0.7200     12951
   0.7300     10786
   0.7400      9077
   0.7500      7614
   0.7600      6231
   0.7700      5136
   0.7800      4199
   0.7900      3366
   0.8000      2722
   0.8100      2185
   0.8200      1817
   0.8300      1437
   0.8400      1179
   0.8500       889
   0.8600       775
   0.8700       611
   0.8800       491
   0.8900       417
   0.9000       300
   0.9100       255
   0.9200       189
   0.9300       167
   0.9400       146
   0.9500       115
   0.9600        78
   0.9700        83
   0.9800        66
   0.9900        52
   1.0000        64
; (Data for Range number 4)
_DRIVE='THETA'
_STEPTIME=10
_STEPSIZE=0.010000
_STEPMODE='S'
_START=0.000000
_THETA=0.000000
_2THETA=1.200000
_KHI=0.000000
_PHI=0.000000
_X=0.000000
_Y=0.000000
_Z=0.000000
_DIVERGENCE=0.000000
_ANTISCATTER=0.000000
_DETECTOR=1
; S.C.
_HV=675.575
_GAIN=80
_LLD=0.700531
_ULD=1.906721
_DETECTORSLIT='unkn'
_AUX1=-0.662540
_AUX2=0.273480
_AUX3=8.000000
_TIMESTARTED=37382
_TEMP_RATE=-1.000000
_TEMP_DELAY=-1.000000
_KV=40
_MA=40
_RANGE_WL=1.540600
_3DPLANE=0
_2THETACOUNTS
   0.0000        37
   0.0100        62
   0.0200        53
   0.0300        67
   0.0400        73
   0.0500       103
   0.0600       112
   0.0700       101
   0.0800       160
   0.0900       191
   0.1000       227
   0.1100       221
   0.1200       284
   0.1300       326
   0.1400       393
   0.1500       413
   0.1600       503
   0.1700       597
   0.1800       734
   0.1900       848
   0.2000       979
   0.2100      1260
   0.2200      1454
   0.2300      1742
   0.2400      1944
   0.2500      2301
   0.2600      2705
   0.2700      3127
   0.2800      3657
   0.2900      4285
   0.3000      4992
   0.3100      5792
   0.3200      6497
   0.3300      7359
   0.3400      8333
   0.3500      9434
   0.3600     11005
   0.3700     12655
   0.3800     14014
   0.3900     15797
   0.4000     17523
   0.4100     19308
   0.4200     20717
   0.4300     22029
   0.4400     22356
   0.4500     21931
   0.4600     20804
   0.4700     19944
   0.4800     18903
   0.4900     18514
   0.5000     17781
   0.5100     17456
   0.5200     17599
   0.5300     17732
   0.5400     17555
   0.5500     18112
   0.5600     19124
   0.5700     19986
   0.5800     23156
   0.5900     35704
   0.6000     45768
   0.6100     39580
   0.6200     33510
   0.6300     27173
   0.6400     21574
   0.6500     18685
   0.6600     17756
   0.6700     17166
   0.6800     16300
   0.6900     15825
   0.7000     15205
   0.7100     14732
   0.7200     14736
   0.7300     15656
   0.7400     16534
   0.7500     17449
   0.7600     17901
   0.7700     17850
   0.7800     17113
   0.7900     16098
   0.8000     14594
   0.8100     13357
   0.8200     11950
   0.8300     10698
   0.8400      9672
   0.8500      8376
   0.8600      7118
   0.8700      6511
   0.8800      5718
   0.8900      4981
   0.9000      4278
   0.9100      3833
   0.9200      3284
   0.9300      2809
   0.9400      2381
   0.9500      2025
   0.9600      1652
   0.9700      1517
   0.9800      1129
   0.9900       993
   1.0000       887
   1.0100       715
   1.0200       541
   1.0300       474
   1.0400       416
   1.0500       353
   1.0600       275
   1.0700       237
   1.0800       187
   1.0900       189
   1.1000       126
   1.1100       139
   1.1200        89
   1.1300        77
   1.1400        83
   1.1500        65
   1.1600        50
   1.1700        47
   1.1800        44
   1.1900        23
   1.2000        36
; (Data for Range number 5)
_DRIVE='THETA'
_STEPTIME=10
_STEPSIZE=0.010000
_STEPMODE='S'
_START=0.000000
_THETA=0.000000
_2THETA=1.400000
_KHI=0.000000
_PHI=0.000000
_X=0.000000
_Y=0.000000
_Z=0.000000
_DIVERGENCE=0.000000
_ANTISCATTER=0.000000
_DETECTOR=1
; S.C.
_HV=675.575
_GAIN=80
_LLD=0.700531
_ULD=1.906721
_DETECTORSLIT='unkn'
_AUX1=-0.662540
_AUX2=0.273480
_AUX3=8.000000
_TIMESTARTED=38639
_TEMP_RATE=-1.000000
_TEMP_DELAY=-1.000000
_KV=40
_MA=40
_RANGE_WL=1.540600
_3DPLANE=0
_2THETACOUNTS
   0.0000        35
   0.0100        17
   0.0200        36
   0.0300        34
   0.0400        32
   0.0500        52
   0.0600        47
   0.0700        64
   0.0800        79
   0.0900        77
   0.1000       102
   0.1100       114
   0.1200       117
   0.1300       162
   0.1400       179
   0.1500       210
   0.1600       248
   0.1700       271
   0.1800       341
   0.1900       388
   0.2000       434
   0.2100       550
   0.2200       583
   0.2300       744
   0.2400       762
   0.2500       928
   0.2600      1034
   0.2700      1210
   0.2800      1321
   0.2900      1537
   0.3000      1667
   0.3100      1946
   0.3200      2098
   0.3300      2436
   0.3400      2597
   0.3500      2891
   0.3600      3259
   0.3700      3658
   0.3800      3939
   0.3900      4386
   0.4000      4658
   0.4100      4994
   0.4200      5170
   0.4300      5343
   0.4400      5309
   0.4500      5100
   0.4600      4679
   0.4700      4561
   0.4800      4268
   0.4900      4241
   0.5000      4063
   0.5100      3989
   0.5200      3972
   0.5300      3932
   0.5400      3891
   0.5500      3847
   0.5600      3973
   0.5700      4221
   0.5800      4581
   0.5900      4881
   0.6000      4880
   0.6100      5230
   0.6200      5748
   0.6300      6162
   0.6400      6339
   0.6500      6921
   0.6600      7331
   0.6700      7628
   0.6800      8448
   0.6900     12294
   0.7000     15928
   0.7100     13782
   0.7200     11751
   0.7300      9817
   0.7400      7712
   0.7500      6418
   0.7600      5885
   0.7700      5404
   0.7800      5025
   0.7900      4675
   0.8000      4400
   0.8100      4155
   0.8200      3828
   0.8300      3622
   0.8400      3298
   0.8500      3027
   0.8600      3081
   0.8700      2955
   0.8800      2854
   0.8900      2831
   0.9000      3008
   0.9100      2895
   0.9200      3003
   0.9300      3096
   0.9400      3258
   0.9500      3734
   0.9600      3850
   0.9700      3893
   0.9800      3727
   0.9900      3604
   1.0000      3454
   1.0100      3288
   1.0200      2950
   1.0300      2717
   1.0400      2456
   1.0500      2284
   1.0600      2117
   1.0700      1985
   1.0800      1716
   1.0900      1510
   1.1000      1379
   1.1100      1240
   1.1200      1080
   1.1300       968
   1.1400       834
   1.1500       718
   1.1600       603
   1.1700       556
   1.1800       477
   1.1900       424
   1.2000       363
   1.2100       301
   1.2200       286
   1.2300       191
   1.2400       180
   1.2500       175
   1.2600       132
   1.2700       119
   1.2800       103
   1.2900        98
   1.3000        81
   1.3100        63
   1.3200        67
   1.3300        40
   1.3400        45
   1.3500        41
   1.3600        44
   1.3700        32
   1.3800        37
   1.3900        16
   1.4000        21
; (Data for Range number 6)
_DRIVE='THETA'
_STEPTIME=10
_STEPSIZE=0.010000
_STEPMODE='S'
_START=0.000000
_THETA=0.000000
_2THETA=1.600000
_KHI=0.000000
_PHI=0.000000
_X=0.000000
_Y=0.000000
_Z=0.000000
_DIVERGENCE=0.000000
_ANTISCATTER=0.000000
_DETECTOR=1
; S.C.
_HV=675.575
_GAIN=80
_LLD=0.700531
_ULD=1.906721
_DETECTORSLIT='unkn'
_AUX1=-0.662540
_AUX2=0.273480
_AUX3=8.000000
_TIMESTARTED=40097
_TEMP_RATE=-1.000000
_TEMP_DELAY=-1.000000
_KV=40
_MA=40
_RANGE_WL=1.540600
_3DPLANE=0
_2THETACOUNTS
   0.0000        19
   0.0100        16
   0.0200        27
   0.0300        19
   0.0400        26
   0.0500        29
   0.0600        32
   0.0700        31
   0.0800        41
   0.0900        43
   0.1000        46
   0.1100        69
   0.1200        55
   0.1300        71
   0.1400        92
   0.1500        97
   0.1600       114
   0.1700       148
   0.1800       136
   0.1900       180
   0.2000       196
   0.2100       247
   0.2200       305
   0.2300       335
   0.2400       380
   0.2500       421
   0.2600       442
   0.2700       514
   0.2800       572
   0.2900       630
   0.3000       716
   0.3100       803
   0.3200       876
   0.3300       926
   0.3400      1028
   0.3500      1097
   0.3600      1181
   0.3700      1321
   0.3800      1423
   0.3900      1536
   0.4000      1593
   0.4100      1607
   0.4200      1770
   0.4300      1773
   0.4400      1647
   0.4500      1625
   0.4600      1522
   0.4700      1369
   0.4800      1266
   0.4900      1185
   0.5000      1109
   0.5100      1086
   0.5200       960
   0.5300       950
   0.5400       916
   0.5500       891
   0.5600       863
   0.5700       881
   0.5800       858
   0.5900       905
   0.6000       876
   0.6100       976
   0.6200      1034
   0.6300       995
   0.6400      1030
   0.6500      1134
   0.6600      1127
   0.6700      1196
   0.6800      1203
   0.6900      1321
   0.7000      1358
   0.7100      1512
   0.7200      1511
   0.7300      1606
   0.7400      1700
   0.7500      1766
   0.7600      1890
   0.7700      1965
   0.7800      2095
   0.7900      2816
   0.8000      3523
   0.8100      3023
   0.8200      2658
   0.8300      2264
   0.8400      1888
   0.8500      1651
   0.8600      1623
   0.8700      1517
   0.8800      1393
   0.8900      1231
   0.9000      1164
   0.9100      1072
   0.9200      1004
   0.9300       854
   0.9400       877
   0.9500       802
   0.9600       770
   0.9700       692
   0.9800       713
   0.9900       655
   1.0000       659
   1.0100       551
   1.0200       618
   1.0300       568
   1.0400       617
   1.0500       559
   1.0600       658
   1.0700       741
   1.0800       714
   1.0900       720
   1.1000       715
   1.1100       814
   1.1200       895
   1.1300       971
   1.1400       980
   1.1500      1113
   1.1600      1172
   1.1700      1231
   1.1800      1195
   1.1900      1193
   1.2000      1137
   1.2100      1173
   1.2200      1045
   1.2300       982
   1.2400       920
   1.2500       846
   1.2600       781
   1.2700       732
   1.2800       605
   1.2900       630
   1.3000       526
   1.3100       508
   1.3200       440
   1.3300       429
   1.3400       348
   1.3500       344
   1.3600       266
   1.3700       269
   1.3800       236
   1.3900       183
   1.4000       173
   1.4100       149
   1.4200       134
   1.4300       118
   1.4400       107
   1.4500        77
   1.4600        65
   1.4700        76
   1.4800        48
   1.4900        50
   1.5000        44
   1.5100        45
   1.5200        42
   1.5300        27
   1.5400        35
   1.5500        28
   1.5600        31
   1.5700        15
   1.5800        23
   1.5900        21
   1.6000        25
; (Data for Range number 7)
_DRIVE='THETA'
_STEPTIME=10
_STEPSIZE=0.010000
_STEPMODE='S'
_START=0.000000
_THETA=0.000000
_2THETA=1.800000
_KHI=0.000000
_PHI=0.000000
_X=0.000000
_Y=0.000000
_Z=0.000000
_DIVERGENCE=0.000000
_ANTISCATTER=0.000000
_DETECTOR=1
; S.C.
_HV=675.575
_GAIN=80
_LLD=0.700531
_ULD=1.906721
_DETECTORSLIT='unkn'
_AUX1=-0.662540
_AUX2=0.273480
_AUX3=8.000000
_TIMESTARTED=41755
_TEMP_RATE=-1.000000
_TEMP_DELAY=-1.000000
_KV=40
_MA=40
_RANGE_WL=1.540600
_3DPLANE=0
_2THETACOUNTS
   0.0000        29
   0.0100        18
   0.0200        20
   0.0300        11
   0.0400        24
   0.0500        20
   0.0600        19
   0.0700        20
   0.0800        27
   0.0900        29
   0.1000        37
   0.1100        41
   0.1200        24
   0.1300        37
   0.1400        44
   0.1500        67
   0.1600        52
   0.1700        82
   0.1800        85
   0.1900       115
   0.2000       109
   0.2100       139
   0.2200       154
   0.2300       172
   0.2400       188
   0.2500       218
   0.2600       261
   0.2700       267
   0.2800       274
   0.2900       332
   0.3000       350
   0.3100       371
   0.3200       439
   0.3300       462
   0.3400       516
   0.3500       495
   0.3600       613
   0.3700       617
   0.3800       667
   0.3900       666
   0.4000       754
   0.4100       754
   0.4200       713
   0.4300       723
   0.4400       667
   0.4500       605
   0.4600       562
   0.4700       562
   0.4800       505
   0.4900       487
   0.5000       439
   0.5100       464
   0.5200       445
   0.5300       378
   0.5400       391
   0.5500       460
   0.5600       399
   0.5700       425
   0.5800       418
   0.5900       422
   0.6000       438
   0.6100       459
   0.6200       437
   0.6300       408
   0.6400       431
   0.6500       428
   0.6600       507
   0.6700       458
   0.6800       522
   0.6900       553
   0.7000       549
[...]
   0.6800        29
   0.6900        33
   0.7000        35
   0.7100        32
   0.7200        40
   0.7300        36
   0.7400        32
   0.7500        35
   0.7600        35
   0.7700        28
   0.7800        35
   0.7900        42
   0.8000        38
   0.8100        37
   0.8200        33
   0.8300        48
   0.8400        33
   0.8500        40
   0.8600        41
   0.8700        36
   0.8800        43
   0.8900        33
   0.9000        31
   0.9100        38
   0.9200        35
   0.9300        33
   0.9400        37
   0.9500        29
   0.9600        45
   0.9700        42
   0.9800        38
   0.9900        35
   1.0000        36
   1.0100        35
   1.0200        48
   1.0300        33
   1.0400        39
   1.0500        34
   1.0600        39
   1.0700        37
   1.0800        36
   1.0900        36
   1.1000        39
   1.1100        41
   1.1200        26
   1.1300        44
   1.1400        36
   1.1500        46
   1.1600        45
   1.1700        38
   1.1800        33
   1.1900        43
   1.2000        47
   1.2100        27
   1.2200        47
   1.2300        39
   1.2400        31
   1.2500        33
   1.2600        33
   1.2700        26
   1.2800        43
   1.2900        49
   1.3000        33
   1.3100        31
   1.3200        43
   1.3300        46
   1.3400        26
   1.3500        36
   1.3600        40
   1.3700        26
   1.3800        33
   1.3900        35
   1.4000        50
   1.4100        39
   1.4200        45
   1.4300        39
   1.4400        55
   1.4500        29
   1.4600        35
   1.4700        43
   1.4800        50
   1.4900        46
   1.5000        38
   1.5100        43
   1.5200        43
   1.5300        30
   1.5400        35
   1.5500        38
   1.5600        47
   1.5700        48
   1.5800        41
   1.5900        49
   1.6000        50
   1.6100        53
   1.6200        41
   1.6300        48
   1.6400        36
   1.6500        42
   1.6600        46
   1.6700        52
   1.6800        44
   1.6900        45
   1.7000        38
   1.7100        43
   1.7200        41
   1.7300        48
   1.7400        28
   1.7500        40
   1.7600        32
   1.7700        40
   1.7800        42
   1.7900        40
   1.8000        36
   1.8100        42
   1.8200        37
   1.8300        48
   1.8400        43
   1.8500        47
   1.8600        38
   1.8700        39
   1.8800        50
   1.8900        45
   1.9000        48
   1.9100        48
   1.9200        57
   1.9300        43
   1.9400        52
   1.9500        48
   1.9600        53
   1.9700        41
   1.9800        53
   1.9900        44
   2.0000        39
   2.0100        43
   2.0200        37
   2.0300        45
   2.0400        42
   2.0500        43
   2.0600        44
   2.0700        49
   2.0800        43
   2.0900        50
   2.1000        49
   2.1100        33
   2.1200        40
   2.1300        43
   2.1400        36
   2.1500        41
   2.1600        53
   2.1700        46
   2.1800        63
   2.1900        32
   2.2000        51
   2.2100        61
   2.2200        52
   2.2300        51
   2.2400        58
   2.2500        48
   2.2600        48
   2.2700        61
   2.2800        61
   2.2900        49
   2.3000        61
   2.3100        47
   2.3200        53
   2.3300        47
   2.3400        57
   2.3500        66
   2.3600        48
   2.3700        59
   2.3800        62
   2.3900        54
   2.4000        45
   2.4100        62
   2.4200        61
   2.4300        54
   2.4400        67
   2.4500        73
   2.4600        79
   2.4700        64
   2.4800        74
   2.4900        69
   2.5000        80
   2.5100        89
   2.5200        78
   2.5300        76
   2.5400        83
   2.5500        70
   2.5600        67
   2.5700        73
   2.5800        79
   2.5900        79
   2.6000        79
   2.6100        63
   2.6200        77
   2.6300        74
   2.6400        69
   2.6500        72
   2.6600        70
   2.6700        72
   2.6800        55
   2.6900        73
   2.7000        45
   2.7100        71
   2.7200        40
   2.7300        39
   2.7400        58
   2.7500        65
   2.7600        67
   2.7700        57
   2.7800        42
   2.7900        47
   2.8000        37
   2.8100        51
   2.8200        50
   2.8300        50
   2.8400        46
   2.8500        61
   2.8600        54
   2.8700        43
   2.8800        45
   2.8900        34
   2.9000        32
   2.9100        46
   2.9200        48
   2.9300        58
   2.9400        47
   2.9500        51
   2.9600        49
   2.9700        44
   2.9800        43
   2.9900        54
   3.0000        51
   3.0100        50
   3.0200        48
   3.0300        51
   3.0400        40
   3.0500        41
   3.0600        39
   3.0700        35
   3.0800        54
   3.0900        44
   3.1000        50
   3.1100        53
   3.1200        41
   3.1300        44
   3.1400        50
   3.1500        38
   3.1600        39
   3.1700        34
   3.1800        43
   3.1900        49
   3.2000        40
   3.2100        35
   3.2200        39
   3.2300        35
   3.2400        46
   3.2500        61
   3.2600        52
   3.2700        49
   3.2800        42
   3.2900        43
   3.3000        36
   3.3100        39
   3.3200        37
   3.3300        33
   3.3400        34
   3.3500        42
   3.3600        43
   3.3700        48
   3.3800        41
   3.3900        41
   3.4000        41
   3.4100        36
   3.4200        38
   3.4300        37
   3.4400        33
   3.4500        39
   3.4600        33
   3.4700        43
   3.4800        34
   3.4900        34
   3.5000        46
   3.5100        33
   3.5200        42
   3.5300        37
   3.5400        34
   3.5500        47
   3.5600        24
   3.5700        42
   3.5800        38
   3.5900        30
   3.6000        45
   3.6100        33
   3.6200        36
   3.6300        42
   3.6400        38
   3.6500        33
   3.6600        35
   3.6700        39
   3.6800        40
   3.6900        35
   3.7000        36
   3.7100        47
   3.7200        40
   3.7300        43
   3.7400        40
   3.7500        40
   3.7600        31
   3.7700        45
   3.7800        32
   3.7900        45
   3.8000        35
   3.8100        34
   3.8200        36
   3.8300        37
   3.8400        41
   3.8500        36
   3.8600        25
   3.8700        39
   3.8800        36
   3.8900        28
   3.9000        41
   3.9100        30
   3.9200        45
   3.9300        40
   3.9400        33
   3.9500        53
   3.9600        34
   3.9700        35
   3.9800        32
   3.9900        37
   4.0000        32
   4.0100        27
   4.0200        35
   4.0300        40
   4.0400        35
   4.0500        23
   4.0600        47
   4.0700        39
   4.0800        34
   4.0900        28
   4.1000        43
   4.1100        35
   4.1200        34
   4.1300        37
   4.1400        50
   4.1500        38
   4.1600        43
   4.1700        27
   4.1800        44
   4.1900        41
   4.2000        36
   4.2100        28
   4.2200        37
   4.2300        41
   4.2400        38
   4.2500        31
   4.2600        29
   4.2700        32
   4.2800        37
   4.2900        42
   4.3000        47
   4.3100        29
   4.3200        41
   4.3300        28
   4.3400        32
   4.3500        35
   4.3600        38
   4.3700        42
   4.3800        40
   4.3900        37
   4.4000        36
   4.4100        39
   4.4200        40
   4.4300        38
   4.4400        40
   4.4500        34
   4.4600        40
   4.4700        39
   4.4800        29
   4.4900        31
   4.5000        45
   4.5100        28
   4.5200        22
   4.5300        39
   4.5400        36
   4.5500        36
   4.5600        37
   4.5700        38
   4.5800        32
   4.5900        43
   4.6000        42
   4.6100        39
   4.6200        31
   4.6300        25
   4.6400        42
   4.6500        34
   4.6600        46
   4.6700        39
   4.6800        43
   4.6900        37
   4.7000        27
   4.7100        36
   4.7200        34
   4.7300        33
   4.7400        42
   4.7500        44
   4.7600        47
   4.7700        36
   4.7800        47
   4.7900        55
   4.8000        40
   4.8100        36
   4.8200        50
   4.8300        44
   4.8400        43
   4.8500        34
   4.8600        32
   4.8700        30
   4.8800        27
   4.8900        29
   4.9000        37
   4.9100        41
   4.9200        44
   4.9300        33
   4.9400        40
   4.9500        34
   4.9600        31
   4.9700        27
   4.9800        43
   4.9900        38
   5.0000        33
   5.0100        29
   5.0200        46
   5.0300        39
   5.0400        34
   5.0500        26
   5.0600        31
   5.0700        39
   5.0800        27
   5.0900        26
   5.1000        41
   5.1100        30
   5.1200        30
   5.1300        33
   5.1400        32
   5.1500        20
   5.1600        21
   5.1700        27
   5.1800        33
   5.1900        22
   5.2000        41
; (Data for Range number 25)
_DRIVE='THETA'
_STEPTIME=30
_STEPSIZE=0.010000
_STEPMODE='S'
_START=0.000000
_THETA=0.000000
_2THETA=5.400000
_KHI=0.000000
_PHI=0.000000
_X=0.000000
_Y=0.000000
_Z=0.000000
_DIVERGENCE=0.000000
_ANTISCATTER=0.000000
_DETECTOR=1
; S.C.
_HV=675.575
_GAIN=80
_LLD=0.700531
_ULD=1.906721
_DETECTORSLIT='unkn'
_AUX1=-0.662540
_AUX2=0.273480
_AUX3=8.000000
_TIMESTARTED=198900
_TEMP_RATE=-1.000000
_TEMP_DELAY=-1.000000
_KV=40
_MA=40
_RANGE_WL=1.540600
_3DPLANE=0
_2THETACOUNTS
   0.0000        23
   0.0100        28
   0.0200        29
   0.0300        30
   0.0400        36
   0.0500        32
   0.0600        34
   0.0700        33
   0.0800        38
   0.0900        36
   0.1000        25
   0.1100        34
   0.1200        34
   0.1300        45
   0.1400        23
   0.1500        49
   0.1600        34
   0.1700        30
   0.1800        37
   0.1900        36
   0.2000        33
   0.2100        41
   0.2200        34
   0.2300        30
   0.2400        33
   0.2500        42
   0.2600        25
   0.2700        36
   0.2800        32
   0.2900        34
   0.3000        45
   0.3100        43
   0.3200        40
   0.3300        27
   0.3400        36
   0.3500        48
   0.3600        35
   0.3700        31
   0.3800        44
   0.3900        28
   0.4000        42
   0.4100        39
   0.4200        36
   0.4300        38
   0.4400        38
   0.4500        28
   0.4600        33
   0.4700        49
   0.4800        40
   0.4900        45
   0.5000        27
   0.5100        38
   0.5200        31
   0.5300        35
   0.5400        29
   0.5500        33
   0.5600        30
   0.5700        36
   0.5800        41
   0.5900        37
   0.6000        36
   0.6100        40
   0.6200        42
   0.6300        44
   0.6400        43
   0.6500        34
   0.6600        36
   0.6700        37
   0.6800        38
   0.6900        28
   0.7000        39
   0.7100        43
   0.7200        38
   0.7300        48
   0.7400        44
   0.7500        48
   0.7600        31
   0.7700        37
   0.7800        45
   0.7900        35
   0.8000        28
   0.8100        40
   0.8200        48
   0.8300        37
   0.8400        43
   0.8500        38
   0.8600        42
   0.8700        43
   0.8800        30
   0.8900        30
   0.9000        28
   0.9100        42
   0.9200        44
   0.9300        46
   0.9400        34
   0.9500        37
   0.9600        25
   0.9700        33
   0.9800        29
   0.9900        36
   1.0000        34
   1.0100        42
   1.0200        40
   1.0300        37
   1.0400        34
   1.0500        38
   1.0600        33
   1.0700        33
   1.0800        38
   1.0900        36
   1.1000        31
   1.1100        22
   1.1200        42
   1.1300        44
   1.1400        46
   1.1500        37
   1.1600        39
   1.1700        39
   1.1800        36
   1.1900        35
   1.2000        39
   1.2100        50
   1.2200        42
   1.2300        48
   1.2400        38
   1.2500        38
   1.2600        37
   1.2700        37
   1.2800        35
   1.2900        55
   1.3000        38
   1.3100        45
   1.3200        35
   1.3300        42
   1.3400        35
   1.3500        40
   1.3600        41
   1.3700        38
   1.3800        44
   1.3900        38
   1.4000        39
   1.4100        35
   1.4200        44
   1.4300        32
   1.4400        38
   1.4500        47
   1.4600        38
   1.4700        43
   1.4800        39
   1.4900        45
   1.5000        41
   1.5100        31
   1.5200        27
   1.5300        27
   1.5400        40
   1.5500        47
   1.5600        36
   1.5700        36
   1.5800        31
   1.5900        33
   1.6000        48
   1.6100        36
   1.6200        33
   1.6300        44
   1.6400        50
   1.6500        39
   1.6600        43
   1.6700        37
   1.6800        32
   1.6900        45
   1.7000        41
   1.7100        46
   1.7200        38
   1.7300        44
   1.7400        41
   1.7500        40
   1.7600        40
   1.7700        39
   1.7800        32
   1.7900        35
   1.8000        45
   1.8100        43
   1.8200        44
   1.8300        36
   1.8400        34
   1.8500        42
   1.8600        39
   1.8700        49
   1.8800        37
   1.8900        40
   1.9000        38
   1.9100        33
   1.9200        50
   1.9300        51
   1.9400        43
   1.9500        42
   1.9600        45
   1.9700        37
   1.9800        41
   1.9900        49
   2.0000        35
   2.0100        46
   2.0200        40
   2.0300        39
   2.0400        57
   2.0500        44
   2.0600        54
   2.0700        41
   2.0800        47
   2.0900        54
   2.1000        49
   2.1100        53
   2.1200        41
   2.1300        50
   2.1400        38
   2.1500        46
   2.1600        45
   2.1700        44
   2.1800        36
   2.1900        57
   2.2000        51
   2.2100        41
   2.2200        51
   2.2300        40
   2.2400        45
   2.2500        41
   2.2600        44
   2.2700        47
   2.2800        55
   2.2900        42
   2.3000        51
   2.3100        54
   2.3200        44
   2.3300        59
   2.3400        59
   2.3500        64
   2.3600        51
   2.3700        55
   2.3800        52
   2.3900        35
   2.4000        56
   2.4100        56
   2.4200        48
   2.4300        45
   2.4400        57
   2.4500        64
   2.4600        52
   2.4700        50
   2.4800        59
   2.4900        67
   2.5000        65
   2.5100        80
   2.5200        51
   2.5300        54
   2.5400        78
   2.5500        37
   2.5600        70
   2.5700        55
   2.5800        67
   2.5900        56
   2.6000        68
   2.6100        57
   2.6200        64
   2.6300        58
   2.6400        76
   2.6500        61
   2.6600        65
   2.6700        86
   2.6800        82
   2.6900        76
   2.7000        61
   2.7100        78
   2.7200        78
   2.7300        53
   2.7400        62
   2.7500        64
   2.7600        59
   2.7700        58
   2.7800        61
   2.7900        49
   2.8000        60
   2.8100        66
   2.8200        67
   2.8300        49
   2.8400        65
   2.8500        46
   2.8600        47
   2.8700        40
   2.8800        49
   2.8900        59
   2.9000        46
   2.9100        46
   2.9200        63
   2.9300        49
   2.9400        49
   2.9500        54
   2.9600        50
   2.9700        42
   2.9800        53
   2.9900        40
   3.0000        59
   3.0100        52
   3.0200        45
   3.0300        56
   3.0400        50
   3.0500        48
   3.0600        54
   3.0700        45
   3.0800        40
   3.0900        33
   3.1000        58
   3.1100        57
   3.1200        44
   3.1300        50
   3.1400        44
   3.1500        42
   3.1600        34
   3.1700        41
   3.1800        42
   3.1900        30
   3.2000        40
   3.2100        58
   3.2200        33
   3.2300        37
   3.2400        46
   3.2500        48
   3.2600        43
   3.2700        39
   3.2800        34
   3.2900        47
   3.3000        38
   3.3100        34
   3.3200        43
   3.3300        34
   3.3400        31
   3.3500        35
   3.3600        45
   3.3700        40
   3.3800        36
   3.3900        39
   3.4000        49
   3.4100        55
   3.4200        40
   3.4300        56
   3.4400        37
   3.4500        42
   3.4600        31
   3.4700        43
   3.4800        28
   3.4900        39
   3.5000        43
   3.5100        35
   3.5200        46
   3.5300        48
   3.5400        38
   3.5500        42
   3.5600        33
   3.5700        40
   3.5800        36
   3.5900        45
   3.6000        45
   3.6100        50
   3.6200        33
   3.6300        57
   3.6400        41
   3.6500        41
   3.6600        43
   3.6700        23
   3.6800        44
   3.6900        29
   3.7000        33
   3.7100        49
   3.7200        38
   3.7300        44
   3.7400        36
   3.7500        46
   3.7600        48
   3.7700        35
   3.7800        47
   3.7900        47
   3.8000        30
   3.8100        46
   3.8200        41
   3.8300        48
   3.8400        57
   3.8500        30
   3.8600        39
   3.8700        38
   3.8800        34
   3.8900        54
   3.9000        36
   3.9100        28
   3.9200        49
   3.9300        42
   3.9400        33
   3.9500        31
   3.9600        38
   3.9700        54
   3.9800        35
   3.9900        41
   4.0000        36
   4.0100        27
   4.0200        46
   4.0300        36
   4.0400        32
   4.0500        28
   4.0600        39
   4.0700        44
   4.0800        36
   4.0900        41
   4.1000        33
   4.1100        59
   4.1200        40
   4.1300        30
   4.1400        32
   4.1500        33
   4.1600        36
   4.1700        36
   4.1800        41
   4.1900        39
   4.2000        35
   4.2100        43
   4.2200        39
   4.2300        36
   4.2400        35
   4.2500        36
   4.2600        45
   4.2700        59
   4.2800        34
   4.2900        29
   4.3000        38
   4.3100        46
   4.3200        41
   4.3300        32
   4.3400        35
   4.3500        41
   4.3600        38
   4.3700        37
   4.3800        41
   4.3900        32
   4.4000        32
   4.4100        38
   4.4200        37
   4.4300        44
   4.4400        30
   4.4500        36
   4.4600        25
   4.4700        55
   4.4800        28
   4.4900        38
   4.5000        35
   4.5100        37
   4.5200        33
   4.5300        37
   4.5400        35
   4.5500        31
   4.5600        41
   4.5700        40
   4.5800        32
   4.5900        35
   4.6000        39
   4.6100        49
   4.6200        33
   4.6300        35
   4.6400        31
   4.6500        31
   4.6600        38
   4.6700        39
   4.6800        44
   4.6900        36
   4.7000        31
   4.7100        39
   4.7200        33
   4.7300        28
   4.7400        39
   4.7500        40
   4.7600        26
   4.7700        40
   4.7800        33
   4.7900        34
   4.8000        39
   4.8100        31
   4.8200        33
   4.8300        30
   4.8400        30
   4.8500        39
   4.8600        34
   4.8700        31
   4.8800        34
   4.8900        36
   4.9000        40
   4.9100        30
   4.9200        37
   4.9300        21
   4.9400        34
   4.9500        20
   4.9600        35
   4.9700        31
   4.9800        42
   4.9900        29
   5.0000        43
   5.0100        34
   5.0200        33
   5.0300        34
   5.0400        34
   5.0500        27
   5.0600        39
   5.0700        31
   5.0800        42
   5.0900        49
   5.1000        31
   5.1100        36
   5.1200        37
   5.1300        34
   5.1400        35
   5.1500        36
   5.1600        35
   5.1700        22
   5.1800        41
   5.1900        30
   5.2000        22