File: debug/reflectometer.UXD
; C:\DIFFDAT1\glavic\PLD\8214\TbMnO_3-2Th.raw(Diffrac Plus V1.01 file) converted by XCH V1.0
_FILEVERSION=2
_SAMPLE='TbMnO3 on YAlO3'
_SITE='J lich / Germany'
_USER='Administrator'
_SAMPLE_CHANGER_CODE=0
_ATTACHMENTS_CODE=0
_GONIOMETER_RADIUS=217.5
_FIXED_DIVSLIT=0.150000
_FIXED_SAMPLESLIT=1.000000
_FIXED_DETSLIT=1.000000
_MONOCHROMATOR=0
; None
_THIN_FILM='N'
_BETA_FILTER='N'
_FIXED_ANTISLIT=0.150000
_ANALYZER_CODE=0
; None
_DATEMEASURED='12-Nov-2008 16:29:07'
_WL_UNIT='A'
_WL1=1.540600
_WL2=1.544390
_WL3=1.392220
_WLRATIO=0.500000
_ANODE='Cu'
; (Data for Range number 1)
_DRIVE='THETA'
_STEPTIME=6.504550
_STEPSIZE=0.005000
_STEPMODE='C'
_START=0.000000
_THETA=0.000000
_2THETA=0.000000
_KHI=0.000000
_PHI=0.000000
_X=0.000000
_Y=0.000000
_Z=0.000000
_DIVERGENCE=0.000000
_ANTISCATTER=0.000000
_DETECTOR=1
; S.C.
_HV=675.575
_GAIN=80
_LLD=0.700531
_ULD=1.906721
_DETECTORSLIT='unkn'
_AUX1=-0.517280
_AUX2=-0.711940
_AUX3=0.058500
_TIMESTARTED=1.2265e+09
_TEMP_RATE=-1.000000
_TEMP_DELAY=-1.000000
_KV=40
_MA=40
_RANGE_WL=1.540600
_3DPLANE=0
_2THETACOUNTS
   0.0000   9872560
   0.0050   8977290
   0.0100   5613560
   0.0150   2894010
   0.0200   1388930
   0.0250   1040420
   0.0300   1065260
   0.0350   1172720
   0.0400   1296590
   0.0450   1434060
   0.0500   1575810
   0.0550   1710150
   0.0600   1846780
   0.0650   1997410
   0.0700   2131450
   0.0750   2282550
   0.0800   2422660
   0.0850   2561630
   0.0900   2700050
   0.0950   2839200
   0.1000   2967980
   0.1050   3097320
   0.1100   3232080
   0.1150   3351780
   0.1200   3481440
   0.1250   3614640
   0.1300   3731970
   0.1350   3858090
   0.1400   3973250
   0.1450   4091780
   0.1500   4211590
   0.1550   4323470
   0.1600   4428000
   0.1650   4540610
   0.1700   4646060
   0.1750   4762330
   0.1800   4864480
   0.1850   4971220
   0.1900   5058540
   0.1950   5142990
   0.2000   5249610
   0.2050   5330810
   0.2100   5410670
   0.2150   5502090
   0.2200   5576640
   0.2250   5650860
   0.2300   5720090
   0.2350   5791260
   0.2400   5856870
   0.2450   5927650
   0.2500   5977390
   0.2550   6019530
   0.2600   6062370
   0.2650   6098700
   0.2700   6137200
   0.2750   6155000
   0.2800   6172930
   0.2850   6179190
   0.2900   6179350
   0.2950   6163590
   0.3000   6142590
   0.3050   6094730
   0.3100   6048580
   0.3150   5964170
   0.3200   5862320
   0.3250   5726460
   0.3300   5559890
   0.3350   5370620
   0.3400   5115760
   0.3450   4827060
   0.3500   4504550
   0.3550   4148230
   0.3600   3775840
   0.3650   3402790
   0.3700   3036980
   0.3750   2721720
   0.3800   2422820
   0.3850   2162770
   0.3900   1918300
   0.3950   1727570
   0.4000   1562810
   0.4050   1422890
   0.4100   1311300
   0.4150   1204300
   0.4200   1103410
   0.4250   1005000
   0.4300    962758
   0.4350    890633
   0.4400    822861
   0.4450    771734
   0.4500    730047
   0.4550    693554
   0.4600    658919
   0.4650    621641
   0.4700    581973
   0.4750    541174
   0.4800    502425
   0.4850    466196
   0.4900    436274
   0.4950    413037
   0.5000    394811
   0.5050    380947
   0.5100    367388
   0.5150    354743
   0.5200    336223
   0.5250    318354
   0.5300    299462
   0.5350    277606
   0.5400    260217
   0.5450    243343
   0.5500    231462
   0.5550    221694
   0.5600    214426
   0.5650    210286
   0.5700    204590
   0.5750    198370
   0.5800    191063
   0.5850    181719
   0.5900    172290
   0.5950    159780
   0.6000    149697
   0.6050    140270
   0.6100    132715
   0.6150    126849
   0.6200    122935
   0.6250    120802
   0.6300    119198
   0.6350    116985
   0.6400    113707
   0.6450    109931
   0.6500    104786
   0.6550     99117
   0.6600     92064
   0.6650     86257
   0.6700     80994
   0.6750     77058
   0.6800     73335
   0.6850     71545
   0.6900     70357
   0.6950     69618
   0.7000     69173
   0.7050     68316
   0.7100     65773
   0.7150     63809
   0.7200     60739
   0.7250     57324
   0.7300     53670
   0.7350     50015
   0.7400     46938
   0.7450     44507
   0.7500     42881
   0.7550     42076
   0.7600     41265
   0.7650     41308
   0.7700     41504
   0.7750     40614
   0.7800     40066
   0.7850     38529
   0.7900     36568
   0.7950     34390
   0.8000     32342
   0.8050     30416
   0.8100     28331
   0.8150     26650
   0.8200     25624
   0.8250     25117
   0.8300     24621
   0.8350     24663
   0.8400     24878
   0.8450     24922
   0.8500     24356
   0.8550     24068
   0.8600     23363
   0.8650     21763
   0.8700     20317
   0.8750     19093
   0.8800     17683
   0.8850     16788
   0.8900     16006
   0.8950     15609
   0.9000     15358
   0.9050     15205
   0.9100     15298
   0.9150     15374
   0.9200     15308
   0.9250     15101
   0.9300     14669
   0.9350     14166
   0.9400     13187
   0.9450     12527
   0.9500     11546
   0.9550     11112
   0.9600     10273
   0.9650      9975
   0.9700      9676
   0.9750      9434
   0.9800      9702
   0.9850      9463
   0.9900      9739
   0.9950      9612
   1.0000      9553
   1.0050      9317
   1.0100      8691
   1.0150      8293
   1.0200      7856
   1.0250      7410
   1.0300      6982
   1.0350      6468
   1.0400      6226
   1.0450      6150
   1.0500      6109
   1.0550      6062
   1.0600      6287
   1.0650      6418
   1.0700      6333
   1.0750      6232
   1.0800      6098
   1.0850      5783
   1.0900      5485
   1.0950      5062
   1.1000      4643
   1.1050      4437
   1.1100      4162
   1.1150      3987
   1.1200      3915
   1.1250      3990
   1.1300      3991
   1.1350      4106
   1.1400      4211
   1.1450      4164
   1.1500      4180
   1.1550      4064
   1.1600      3905
   1.1650      3637
   1.1700      3392
   1.1750      3109
   1.1800      2952
   1.1850      2788
   1.1900      2722
   1.1950      2622
   1.2000      2655
   1.2050      2701
   1.2100      2602
   1.2150      2738
   1.2200      2870
   1.2250      2719
   1.2300      2752
   1.2350      2583
   1.2400      2529
   1.2450      2322
   1.2500      2003
   1.2550      2028
   1.2600      1913
   1.2650      1792
   1.2700      1806
   1.2750      1758
   1.2800      1891
   1.2850      1871
   1.2900      1864
   1.2950      1955
   1.3000      1920
   1.3050      1913
   1.3100      1824
   1.3150      1772
   1.3200      1640
   1.3250      1496
   1.3300      1366
   1.3350      1308
   1.3400      1265
   1.3450      1227
   1.3500      1175
   1.3550      1172
   1.3600      1285
   1.3650      1298
   1.3700      1246
   1.3750      1324
   1.3800      1324
   1.3850      1244
   1.3900      1200
   1.3950      1190
   1.4000      1022
   1.4050       992
   1.4100       879
   1.4150       901
   1.4200       838
   1.4250       864
   1.4300       861
   1.4350       897
   1.4400       885
   1.4450       905
   1.4500       891
   1.4550       933
   1.4600       888
   1.4650       873
   1.4700       795
   1.4750       758
   1.4800       749
   1.4850       633
   1.4900       656
   1.4950       625
   1.5000       586
   1.5050       649
   1.5100       587
   1.5150       675
   1.5200       662
   1.5250       688
   1.5300       712
   1.5350       663
   1.5400       638
   1.5450       595
   1.5500       590
   1.5550       523
   1.5600       483
   1.5650       481
   1.5700       439
   1.5750       428
   1.5800       438
   1.5850       449
   1.5900       471
   1.5950       476
   1.6000       475
   1.6050       488
   1.6100       489
   1.6150       472
   1.6200       474
   1.6250       426
   1.6300       409
   1.6350       383
   1.6400       355
   1.6450       379
   1.6500       354
   1.6550       329
   1.6600       328
   1.6650       333
   1.6700       380
   1.6750       390
   1.6800       364
   1.6850       390
   1.6900       354
   1.6950       343
   1.7000       327
   1.7050       310
   1.7100       288
   1.7150       269
   1.7200       254
   1.7250       272
   1.7300       253
   1.7350       281
   1.7400       235
   1.7450       279
   1.7500       297
   1.7550       288
   1.7600       255
   1.7650       286
   1.7700       276
   1.7750       232
   1.7800       276
   1.7850       239
   1.7900       203
   1.7950       200
   1.8000       183
   1.8050       192
   1.8100       204
   1.8150       217
   1.8200       173
   1.8250       204
   1.8300       200
   1.8350       206
   1.8400       214
   1.8450       217
   1.8500       215
   1.8550       194
   1.8600       192
   1.8650       175
   1.8700       187
   1.8750       166
   1.8800       158
   1.8850       153
   1.8900       162
   1.8950       161
   1.9000       157
   1.9050       173
   1.9100       184
   1.9150       161
   1.9200       158
   1.9250       186
   1.9300       146
   1.9350       141
   1.9400       142
   1.9450       120
   1.9500       145
   1.9550       129
   1.9600       127
   1.9650       120
   1.9700       134
   1.9750       135
   1.9800       146
   1.9850       127
   1.9900       135
   1.9950       116
   2.0000       140
   2.0050       129
   2.0100       124
   2.0150       101
   2.0200       107
   2.0250        96
   2.0300       105
   2.0350        92
   2.0400       107
   2.0450        88
   2.0500       117
   2.0550       118
   2.0600       136
   2.0650       127
   2.0700       119
   2.0750       102
   2.0800       109
   2.0850       105
   2.0900       110
   2.0950        99
   2.1000        95
   2.1050        87
   2.1100        83
   2.1150        89
   2.1200        91
   2.1250        80
   2.1300        71
   2.1350        95
   2.1400        85
   2.1450        89
   2.1500       110
   2.1550        88
   2.1600        92
   2.1650        95
   2.1700        94
   2.1750        88
   2.1800        73
   2.1850        76
   2.1900        73
   2.1950        67
   2.2000        80
   2.2050        78
   2.2100        80
   2.2150        82
   2.2200        78
   2.2250        65
   2.2300        79
   2.2350        77
   2.2400        62
   2.2450        60
   2.2500        78
   2.2550        55
   2.2600        78
   2.2650        66
   2.2700        55
   2.2750        66
   2.2800        62
   2.2850        76
   2.2900        72
   2.2950        76
   2.3000        59
   2.3050        59
   2.3100        83
   2.3150        73
   2.3200        68
   2.3250        52
   2.3300        64
   2.3350        47
   2.3400        49
   2.3450        47
   2.3500        65
   2.3550        62
   2.3600        53
   2.3650        68
   2.3700        58
   2.3750        69
   2.3800        56
   2.3850        59
   2.3900        65
   2.3950        59
   2.4000        58
   2.4050        50
   2.4100        43
   2.4150        47
   2.4200        44
   2.4250        53
   2.4300        46
   2.4350        41
   2.4400        47
   2.4450        22
   2.4500        55
   2.4550        56
   2.4600        41
   2.4650        48
   2.4700        45
   2.4750        53
   2.4800        44
   2.4850        52
   2.4900        38
   2.4950        52
   2.5000        37
   2.5050        38
   2.5100        39
   2.5150        42
   2.5200        37
   2.5250        40
   2.5300        41
   2.5350        47
   2.5400        32
   2.5450        48
   2.5500        48
   2.5550        37
   2.5600        34
   2.5650        42
   2.5700        37
   2.5750        31
   2.5800        42
   2.5850        29
   2.5900        36
   2.5950        39
   2.6000        32
   2.6050        37
   2.6100        39
   2.6150        40
   2.6200        40
   2.6250        28
   2.6300        38
   2.6350        46
   2.6400        29
   2.6450        27
   2.6500        33
   2.6550        25
   2.6600        35
   2.6650        27
   2.6700        26
   2.6750        35
   2.6800        21
   2.6850        32
   2.6900        24
   2.6950        34
   2.7000        37
   2.7050        34
   2.7100        36
   2.7150        36
   2.7200        33
   2.7250        31
   2.7300        24
   2.7350        22
   2.7400        20
   2.7450        35
   2.7500        24
   2.7550        23
   2.7600        35
   2.7650        31
   2.7700        30
   2.7750        27
   2.7800        27
   2.7850        30
   2.7900        38
   2.7950        22
   2.8000        25
   2.8050        26
   2.8100        24
   2.8150        27
   2.8200        16
   2.8250        26
   2.8300        23
   2.8350        28
   2.8400        28
   2.8450        21
   2.8500        26
   2.8550        24
   2.8600        21
   2.8650        30
   2.8700        24
   2.8750        28
   2.8800        22
   2.8850        29
   2.8900        30
   2.8950        20
   2.9000        18
   2.9050        27
   2.9100        20
   2.9150        16
   2.9200        28
   2.9250        22
   2.9300        27
   2.9350        19
   2.9400        19
   2.9450        27
   2.9500        23
   2.9550        19
   2.9600        23
   2.9650        25
   2.9700        16
   2.9750        12
   2.9800        20
   2.9850        13
   2.9900        18
   2.9950        12
   3.0000        23
   3.0050        24
   3.0100        23
   3.0150        11
   3.0200        14
   3.0250        13
   3.0300        17
   3.0350        15
   3.0400        14
   3.0450        12
   3.0500        14
   3.0550        19
   3.0600        24
   3.0650        21
   3.0700        20
   3.0750        14
   3.0800        19
   3.0850        25
   3.0900        17
   3.0950        20
   3.1000        16
   3.1050        25
   3.1100        19
   3.1150        14
   3.1200        17
   3.1250        19
   3.1300        14
   3.1350        12
   3.1400        11
   3.1450        20
   3.1500        20
   3.1550        18
   3.1600        12
   3.1650        13
   3.1700        14
   3.1750        17
   3.1800        18
   3.1850        22
   3.1900        16
   3.1950        16
   3.2000        20
   3.2050        10
   3.2100        20
   3.2150         7
   3.2200        13
   3.2250        15
   3.2300        12
   3.2350        12
   3.2400        10
   3.2450        12
   3.2500        14
   3.2550        16
   3.2600        11
   3.2650        13
   3.2700        12
   3.2750        14
   3.2800        14
   3.2850         7
   3.2900        13
   3.2950        13
   3.3000        19
   3.3050        11
   3.3100        12
   3.3150        16
   3.3200        11
   3.3250        13
   3.3300         9
   3.3350        12
   3.3400        11
   3.3450        10
   3.3500        13
   3.3550        11
   3.3600         6
   3.3650        17
   3.3700        18
   3.3750        18
   3.3800        12
   3.3850         9
   3.3900         6
   3.3950        22
   3.4000         7
   3.4050        10
   3.4100         7
   3.4150        15
   3.4200        13
   3.4250         7
   3.4300         5
   3.4350         9
   3.4400        10
   3.4450        10
   3.4500         9
   3.4550        13
   3.4600         5
   3.4650         4
   3.4700         8
   3.4750        14
   3.4800        17
   3.4850        14
   3.4900         6
   3.4950         9
   3.5000        12
   3.5050        10
   3.5100        12
   3.5150        10
   3.5200         8
   3.5250         8
   3.5300         7
   3.5350         8
   3.5400         5
   3.5450         5
   3.5500         9
   3.5550         8
   3.5600         8
   3.5650        10
   3.5700         8
   3.5750        14
   3.5800        10
   3.5850         7
   3.5900        13
   3.5950         7
   3.6000         9
   3.6050        11
   3.6100         8
   3.6150         6
   3.6200        14
   3.6250         9
   3.6300         5
   3.6350        10
   3.6400        15
   3.6450        11
   3.6500         9
   3.6550         5
   3.6600         5
   3.6650         7
   3.6700         6
   3.6750         6
   3.6800         9
   3.6850         9
   3.6900         7
   3.6950        12
   3.7000         7
   3.7050         7
   3.7100         7
   3.7150        11
   3.7200         9
   3.7250         9
   3.7300         8
   3.7350         5
   3.7400         7
   3.7450         9
   3.7500         3
   3.7550         7
   3.7600        10
   3.7650        11
   3.7700         7
   3.7750         4
   3.7800         9
   3.7850         6
   3.7900        11
   3.7950         4
   3.8000         6
   3.8050         7
   3.8100         2
   3.8150         7
   3.8200        12
   3.8250        11
   3.8300         5
   3.8350         8
   3.8400         9
   3.8450         7
   3.8500         7
   3.8550         9
   3.8600         9
   3.8650         4
   3.8700         7
   3.8750         7
   3.8800         8
   3.8850        11
   3.8900         4
   3.8950         2
   3.9000         9
   3.9050         7
   3.9100         6
   3.9150         6
   3.9200         8
   3.9250         8
   3.9300         5
   3.9350         8
   3.9400         4
   3.9450         8
   3.9500         3
   3.9550         6
   3.9600         5
   3.9650         4
   3.9700         8
   3.9750        13
   3.9800         6
   3.9850         7
   3.9900         6
   3.9950         7
   4.0000         7